Folder: Si-Nb-Si-glass/data/XPS/tesSESSAPipe/experiment

Note: README.md
# Si-Nb-Si-glass
Project for using SESSA program like core-calculator of theoretical XPS-spectra in minimization procedure to build a multilayer structures.
This project was started when I had a problem with build a structure fro the known experimental spectra. 
Unfortunately SESSA v2 doesn't have pure CLI (no-gui) version and I wrote a special wrapper on C and python to call SESSA calculator for each automatically created input file.

File: Nb3d.dat
BE (eV)	0 min	1 min	8 min	14 min	17 min	24 min
217	722.963	705.744	797.749	1091.63	1224.87	822.113
216.8	771.521	765.004	755.233	1088.43	1209.72	891.715
216.6	753.244	772.697	797.072	1069.52	1196.38	934.393
216.4	683.811	756.305	812.856	1034.01	1178.09	873.081
216.2	697.456	734.015	777.393	1130.84	1134.04	929.465
216	697.812	753.411	798.704	1097.79	1205.89	830.405
215.8	718.981	739.671	785.027	1118.58	1109.59	856.377
215.6	708.792	748.969	768.355	1053.3	1157.33	883.837
215.4	691.048	764.635	785.109	1031.39	1158.79	879.157
215.2	730.392	718.697	775.021	1070.58	1149.44	805.504
215	790.099	710.492	746.404	1025.06	1113.77	847.329
214.8	726.743	781.019	757.436	1049.38	1119.24	846.743
214.6	729.224	746.491	716.324	1045.69	1173.46	906.959
214.4	703.432	765.167	745.107	948.688	1108	776.985
214.2	639.809	729.544	700.285	1015.35	1048.02	781.368
214	748.189	697.076	746.636	984.564	1109.92	870.132
213.8	682.964	728.909	738.392	976.505	1076.91	884.532
213.6	741.757	757.708	807.704	998.557	1081.78	908.424
213.4	810.629	761.032	772.744	986.753	1071.87	776.191
213.2	697.599	753.208	777.293	941.483	1069.56	780.888
213	743.064	748.247	756.725	965.992	1115.53	804.855
212.8	798.712	702.136	774.357	1004.92	1130.5	832.312
212.6	746.361	739.891	725.72	980.329	1117.02	804.652
212.4	674.776	783.572	743.945	977.099	1034.09	843.744
212.2	724.381	744.139	772.037	962.995	1110.22	743.649
212	755.203	730.632	779.131	947.923	1100.6	806.685
211.8	741.103	758.311	750.297	960.095	1093.14	809.577
211.6	706.797	761.487	760.024	892.204	1055.66	849.208
211.4	702.856	697.621	754.679	875.976	1050.24	817.963
211.2	741.14	712.325	734.607	917.917	1106.27	791.216
211	713.829	754.785	720.643	941.145	1086.5	854.204
210.8	826.031	758.965	743.968	910.464	1087.38	833.203
210.6	750.071	752.139	804.648	931.073	1116.34	762.927
210.4	687.036	737.279	718.077	931.92	1161.5	806.653
210.2	779.919	739.796	720.355	898.531	1158.71	800.121
210	719.568	722.229	767.243	877.161	1135.35	843.517
209.8	718.303	736.332	687.459	894.877	1110.73	816.469
209.6	755.315	766.661	708.125	855.26	1191.03	856.107
209.4	710.424	735.583	746.455	931.396	1194.76	847.784
209.2	748.087	737.095	796.292	1025.9	1198.42	828.049
209	726.599	745.688	736.919	948.528	1249.6	860.743
208.8	750.607	749.837	767.18	1000.07	1204.91	884.129
208.6	725.617	794.077	718.433	963.661	1213.67	969.635
208.4	766.589	760.869	700.129	960.568	1261.97	913.083
208.2	725.117	747.121	740.152	989.123	1346.39	946.915
208	763.407	782.707	757.441	988.841	1460.81	915.663
207.8	792.955	789.028	699.731	1060.16	1349.45	1019.63
207.6	747.679	793.947	764.125	1032.67	1409.29	1073.36
207.4	755.869	794.711	788.191	1124.74	1600.17	1165.39
207.2	788.855	780.652	826.188	1242.13	1847.68	1229.67
207	732.856	750.753	796.263	1354.6	1973.65	1493.49
206.8	788.113	726.388	779.923	1463.53	2353.09	1602.97
206.6	780.464	725.135	919.5	1817.52	2966.33	2131.97
206.4	727.021	752.635	888.924	2407.03	3881.07	2817.03
206.2	787.733	777.315	1039.15	2986.56	4993.72	3395.56
206	794.549	769.221	1138.65	3246.24	5301.37	3626.73
205.8	771.981	784.648	1027.14	3175.29	4629.25	3283.03
205.6	751.915	761.788	897.455	2200.79	3232.69	2365.24
205.4	784.153	817.161	847.059	1616.55	2170.21	1614.73
205.2	733.055	743.652	782.771	1277.72	1706.59	1232.2
205	745.432	731.449	759.297	1181.4	1482.08	1142.96
204.8	754.335	725.612	756.396	1124.63	1508.72	1092.04
204.6	759.769	838.121	786.063	1119.69	1655.15	1146.54
204.4	782.688	767.081	812.108	1157.33	1790.07	1222.95
204.2	780.977	747.015	823.067	1323.39	2035.83	1434.64
204	757.263	749.879	857.42	1654.79	2572	1926.91
203.8	774.667	814.409	902.171	2189.97	3721.75	2563.37
203.6	759.135	829.117	996.508	3063.17	5770.08	3821.64
203.4	748.504	845.203	1240.54	4421.92	7781.77	5310.85
203.2	817.969	869.267	1184.11	4845.76	8265.25	5554.93
203	807.455	817.595	1165.74	3915.85	6020.55	4203.96
202.8	776.244	807.829	945.123	2226.91	3010.75	2409.53
202.6	746.168	784.549	847.779	1265.8	1465.93	1179.82
202.4	724.185	710.297	763.515	822.188	1028.95	782.737
202.2	766.099	797.491	752.383	782.407	800.401	665.008
202	770.724	781.581	774.811	706.964	756.144	634.273
201.8	746.544	766.749	765.897	647.675	717.456	561.108
201.6	808.648	734.901	686.315	672.809	643.032	551.707
201.4	751.583	772.951	756.955	703.279	645.037	558.735
201.2	755.121	787.383	761.541	685.617	704.965	475.184
201	725.396	709.012	754.019	657.892	657.32	531.345
200.8	737.419	754.288	747.063	638.733	662.773	495.355
200.6	719.485	734.216	708.416	622.731	646.861	537.881
200.4	754.992	792.216	735.581	636.144	569.799	524.972
200.2	718.648	750.868	741.773	630.012	587.311	522.681
200	799.896	792.269	776.737	670.6	588.267	480.829
199.8	768.06	809.085	806.143	648.256	638.621	513.747
199.6	738.257	792.936	755.749	691.536	608.123	533.233
199.4	752.632	770.549	723.023	671.419	655.067	532.293
199.2	747.668	812.629	778.981	667.828	610.009	474.593
199	769.315	782.324	746.629	631.055	649.409	563.377
198.8	699.691	764.915	678.596	641.717	631.233	538.021
198.6	759.855	829.103	737.581	683.763	647.864	525.276
198.4	680.564	749.411	738.067	670.099	615.021	536.08
198.2	755.712	794.14	710.913	611.377	600.024	574.44
198	758.761	749.216	751.783	627.676	612.816	568.451
197.8	789.351	742.123	761.419	663.869	624.307	521.091
197.6	780.441	724.059	755.731	657.384	610.819	501.515
197.4	802.532	738.237	773.729	600.443	633.875	560.195
197.2	772.379	736.661	765.237	613.521	640.881	549.419
197	782.409	810.269	712.564	618.171	606.072	526.576

File: Si2p.dat
BE (eV)	0 min	1 min	8 min	14 min	17 min	24 min
110	232.086	270.198	439.738	351.174	232.404	285.548
109.9	232.27	272.222	423.756	342.014	275.394	280.366
109.8	239.944	303.312	404.228	308.358	241.728	285.944
109.7	222.08	260.344	417.352	349.688	258.472	271.784
109.6	283.446	293.548	360.568	329.844	253.532	226.252
109.5	302.086	282.532	367.988	302.214	222.096	279.964
109.4	252.326	305.852	368.076	309.566	234.028	272.464
109.3	255.964	286.304	346.466	292.772	240.176	284.026
109.2	250.026	310.364	433.554	311.804	283.468	301.67
109.1	245.682	417.116	409.822	274.164	242.322	289.546
109	200.758	296.508	399.756	339.852	244.306	270.428
108.9	285.136	365.464	382.014	351.894	249.588	267.792
108.8	226.228	318.14	363.728	329.724	238.21	269.844
108.7	222.054	301.722	365.786	320.474	226.244	256.596
108.6	253.89	286.184	291.296	333.108	247.736	271.988
108.5	241.998	295.85	393.44	235.072	266.452	325.506
108.4	210.302	294.498	327.886	313.406	259.322	246.054
108.3	250.04	319.926	335.894	274.438	220.08	262.074
108.2	251.98	300.018	327.768	327.418	261.836	252.204
108.1	261.602	275.684	330.106	305.994	250.424	311.428
108	228.454	242.526	332.162	274.38	269.94	230.324
107.9	247.694	287.9	349.864	291.542	239.654	248.128
107.8	254.04	289.804	302.31	266.242	253.84	235.858
107.7	234.088	288.312	330.054	290.326	222.228	254.188
107.6	221.752	289.634	330.144	285.738	243.806	252.122
107.5	210.216	272.302	354.008	270.36	218.626	253.886
107.4	211.91	286.082	299.364	276.144	221.81	198.256
107.3	233.92	311.322	323.52	307.596	222.324	219.284
107.2	208.086	248.52	312.872	289.98	273.812	262.268
107.1	210.35	325.198	326.392	260.572	255.464	240.606
107	227.622	232.684	335.488	301.616	258.16	285.65
106.9	202.262	291.566	250.394	301.772	244.062	253.998
106.8	233.506	231.008	329.292	304.106	251.698	261.644
106.7	204.566	265.654	298.782	315.898	206.154	236.076
106.6	245.736	257.352	321.786	292.222	225.994	214.028
106.5	213.968	250.718	329.696	269.872	265.486	232.02
106.4	234.424	323.594	354.094	281.858	214.702	216.182
106.3	267.17	295.764	339.758	260.4	207.914	246.208
106.2	200.322	266.426	294.65	311.668	192.199	289.406
106.1	209.802	269.92	363.236	268.566	276.018	216.268
106	200.474	247.926	302.12	303.204	255.526	252.182
105.9	225.912	262.142	301.752	252.912	204.732	279.278
105.8	238.06	231.944	320.674	301.296	263.91	281.98
105.7	252.312	248.144	272.156	291.968	275.86	268.352
105.6	271.656	303.48	283.514	261.944	262.232	297.946
105.5	268.156	252.336	324.136	275.914	269.668	260.086
105.4	277.816	276.27	341.582	270.214	234.262	313.514
105.3	273.656	289.562	280.338	261.96	246.268	274.412
105.2	270.998	276.194	272.66	241.892	245.526	310.298
105.1	341.944	319.772	315.154	258.608	204.072	314.412
105	388.714	274.306	262.028	297.602	259.914	319.86
104.9	465.586	272.258	264.238	268.472	236.062	349.928
104.8	507.792	344.27	286.036	309.33	238.034	332.036
104.7	504.924	358.41	283.81	291.892	220.13	333.98
104.6	598.006	397.718	282.262	283.874	281.81	371.512
104.5	701.796	391.958	301.714	260.316	237.846	346.252
104.4	750.338	437.676	296.448	260.074	241.948	341.968
104.3	781.778	453.978	341.644	280.534	252.174	347.752
104.2	882.036	500.23	285.864	289.478	253.886	318.64
104.1	934.31	518	246.606	274.232	246.27	331.968
104	988.532	532.54	301.42	278.208	236.04	345.906
103.9	1052.95	605.856	272.338	287.62	285.514	318.228
103.8	960.284	591.784	291.664	264.292	238.16	347.736
103.7	1108.1	617.546	264.418	297.232	221.964	331.282
103.6	1057.93	612.444	289.878	306.438	241.81	308.258
103.5	1036.64	669.75	297.778	321.278	208.346	276.458
103.4	1072.53	721.938	286.326	266.662	240.272	301.594
103.3	960.832	684.21	277.492	293.906	261.434	312.036
103.2	1023.11	698.506	290.106	236.536	242.608	280.252
103.1	920.108	743.34	270.16	277.616	266.184	284.148
103	860.338	674.164	303.892	317.978	228.122	306.412
102.9	829.148	666.474	319.86	291.818	289.268	351.088
102.8	712.454	677.694	302.034	264.42	232.19	278.748
102.7	722.54	678.258	250.404	269.588	245.914	317.528
102.6	693.23	709.938	285.678	270.41	218.386	302.162
102.5	596.676	708.14	260.668	282.264	281.268	329.6
102.4	615.438	687.982	285.38	347.216	244.528	274.13
102.3	537.636	695.978	270.066	274.124	265.992	258.336
102.2	524.606	691.752	279.796	296.056	272.14	287.938
102.1	549.248	659.748	305.696	302.514	251.816	327.648
102	483.736	592.06	286.532	353.542	296.042	306.608
101.9	464.29	584.312	321.65	306.184	273.98	329.616
101.8	462.056	611.772	272.526	321.94	276.256	337.63
101.7	379.914	655.786	267.802	342.14	307.892	288.732
101.6	358.596	642.386	317.622	370.866	312.356	386.036
101.5	403.998	702.886	306.668	461.534	350.108	402.178
101.4	424.182	740.424	350.41	449.718	378.034	419.96
101.3	475.434	823.134	394.398	418.656	418.238	499.552
101.2	406.372	778.136	463.66	514.208	444.162	490.98
101.1	480.434	789.926	489.202	610.106	482.218	590.136
101	587.906	976.532	620.306	585.556	581.876	672.404
100.9	638.316	1021.5	756.876	877.606	660.428	826.826
100.8	751.14	1241.16	1022.38	971.62	783.068	957.674
100.7	959.796	1328.77	1391.7	1283.07	930.27	1182.38
100.6	1214.69	1673.42	1750.44	1644	1137.54	1453.59
100.5	1450.28	1967.36	2248.88	1966.61	1599.99	1622.81
100.4	1725.39	2211.72	2903.58	2483.04	1867.54	2141.44
100.3	1998.75	2500.06	3201.8	2896.9	2110.82	2435.22
100.2	2144.94	2774.4	3796.08	3221.36	2441	2769.06
100.1	2336.28	2844.58	4013.94	3489.46	2890.78	2950.14
100	2534.54	2893.68	4304.28	3762.12	3035.72	3141.82
99.9	2582.38	3003.76	4437.52	3917.24	3408.02	3427.32
99.8	2743.82	3107.02	4820.8	4305.16	3372.24	3569.24
99.7	2588.46	3182.84	5170.82	4434.88	3647.7	3577.92
99.6	2539.7	3033	4996.6	4304.82	3424.1	3601.68
99.5	2249.54	2695.06	4266.7	4036.16	3366.42	3240.08
99.4	1849.4	2088.52	3758.5	3448.22	3014.26	2936.92
99.3	1280.62	1573.98	2952.12	2736.02	2427.12	2059.88
99.2	913.892	1106.01	2009.58	1972.39	1796.19	1550.92
99.1	560.276	696.298	1383.54	1436.9	1260.03	1034.71
99	334.318	503.772	824.472	879.398	810.204	690.66
98.9	241.772	310.59	510.804	547.518	488.694	501.244
98.8	197.997	267.804	389.778	360.198	355.954	292.014
98.7	122.395	175.963	283.92	270.286	261.978	246.054
98.6	135.551	153.997	259.934	235.812	200.06	204.06
98.5	136.06	138.216	210.052	202.014	136.389	182.009
98.4	94.034	138.156	126.429	168.253	159.71	144.239
98.3	90.0512	117.844	143.884	179.531	156.207	153.608
98.2	84.1904	108.099	139.869	166.241	130.091	108.168
98.1	90.1846	98.1306	126.051	134.318	127.923	94.2046
98	113.628	77.9262	114.06	169.403	139.983	124.003
97.9	78.4346	81.7358	125.983	145.952	121.963	94.1278
97.8	93.8466	92.1164	114.372	132.173	92.2698	109.81
97.7	81.8296	105.881	129.503	139.972	117.554	92.2244
97.6	68.125	79.963	126.034	142.219	94.4432	104.063
97.5	74.0796	76.1222	120.097	132.179	119.83	103.778
97.4	101.761	68.2216	131.645	138.034	98.0966	102.085
97.3	77.9488	87.7472	96.3636	169.753	111.912	101.952
97.2	102.176	76	112	125.807	109.952	129.849
97.1	86.2244	64.1108	121.872	136.287	90.0568	102.304
97	101.733	60.0768	130.054	135.824	119.793	105.886
96.9	71.9518	67.9488	131.974	129.915	102.318	127.858
96.8	86.2954	67.9546	118.128	94.2982	128.074	108.116
96.7	93.8324	68.3268	108.205	112.065	133.432	123.818
96.6	93.7414	89.733	113.753	122.08	80.5852	114.207
96.5	78.1336	86	88.0482	159.531	113.733	99.8664
96.4	76.054	83.8608	101.804	110.557	108.003	88.2642
96.3	91.6478	74.1676	106.011	133.534	119.628	85.9376
96.2	98.1676	71.9432	92.2982	96.5426	92.1988	125.565
96.1	64.3608	81.8806	125.872	145.528	98.2244	80.537
96	99.7046	86.0198	127.73	122.031	104.153	106.043
95.9	92.0568	74.3352	90.6392	133.798	117.685	109.571
95.8	76.0454	95.4772	153.597	132.063	128.239	76.4262
95.7	70.2272	64.3836	111.881	127.827	105.906	105.744
95.6	83.9546	80.0312	105.952	108.42	89.9176	119.997
95.5	91.8664	68.1278	86.2472	128.06	82.1648	88.1676
95.4	76	87.733	103.483	149.753	101.821	96.4518
95.3	62.1222	80.125	80.4886	126.33	100.284	127.551
95.2	55.9034	90.054	92.341	135.679	145.469	102.043
95.1	85.7556	89.963	125.406	110.091	112.327	123.756
95	96.0824	78.0284	88.0852	111.798	118.094	109.966
94.9	90.0426	86.0938	107.997	97.9972	119.886	85.9546
94.8	96.0852	103.526	112.011	99.892	109.852	84.3522
94.7	75.983	68.2188	136.134	116.321	90.5568	78.0596
94.6	86.1876	85.9744	123.915	114.443	121.659	86.1364
94.5	95.6904	95.7982	116.065	143.398	117.923	105.523
94.4	64.2472	70.5852	97.892	90.2614	104.062	84.5056
94.3	83.8324	91.6704	86.4488	124.071	68.3466	113.761
94.2	76.267	70.0596	117.389	127.892	151.574	109.889
94.1	101.795	63.8948	70.6762	106.125	100.136	89.8238
94	93.767	70.2472	127.287	129.892	118.207	90.0824