Folder: Si-Nb-Si-glass/data/XPS/casaXPSspectra_Nb=13A

Note: README.md
# Si-Nb-Si-glass
Project for using SESSA program like core-calculator of theoretical XPS-spectra in minimization procedure to build a multilayer structures.
This project was started when I had a problem with build a structure fro the known experimental spectra. 
Unfortunately SESSA v2 doesn't have pure CLI (no-gui) version and I wrote a special wrapper on C and python to call SESSA calculator for each automatically created input file.

File: ref_Nb3d_Nb-Nb.dat
1269.97	31.86
1270.07	32.38
1270.17	32.93
1270.27	33.49
1270.37	34.04
1270.47	34.59
1270.57	35.15
1270.67	35.7
1270.77	36.25
1270.87	36.81
1270.97	37.45
1271.07	38.12
1271.17	38.8
1271.27	39.49
1271.37	40.25
1271.47	41
1271.57	41.75
1271.67	42.51
1271.77	43.26
1271.87	44.01
1271.97	44.76
1272.07	45.52
1272.17	46.41
1272.27	47.36
1272.37	48.31
1272.47	49.29
1272.57	50.35
1272.67	51.41
1272.77	52.48
1272.87	53.54
1272.97	54.6
1273.07	55.66
1273.17	56.72
1273.27	57.79
1273.37	59.13
1273.47	60.52
1273.57	61.91
1273.67	63.38
1273.77	64.95
1273.87	66.51
1273.97	68.08
1274.07	69.65
1274.17	71.22
1274.27	72.78
1274.37	74.35
1274.47	75.92
1274.57	78.06
1274.67	80.23
1274.77	82.41
1274.87	84.74
1274.97	87.21
1275.07	89.67
1275.17	92.14
1275.27	94.61
1275.37	97.07
1275.47	99.53
1275.57	102.02
1275.67	104.49
1275.77	107.47
1275.87	110.58
1275.97	113.78
1276.07	117.43
1276.17	121.41
1276.27	125.51
1276.37	129.76
1276.47	134.19
1276.57	138.78
1276.67	143.57
1276.77	148.56
1276.87	153.8
1276.97	159.26
1277.07	164.98
1277.17	171.02
1277.27	178.01
1277.37	185.6
1277.47	193.57
1277.57	201.95
1277.67	210.77
1277.77	220.11
1277.87	229.98
1277.97	240.44
1278.07	251.61
1278.17	263.51
1278.27	276.27
1278.37	289.94
1278.47	305.29
1278.57	322.12
1278.67	340.45
1278.77	360.44
1278.87	382.4
1278.97	406.46
1279.07	433.04
1279.17	462.44
1279.27	495.06
1279.37	531.49
1279.47	572.26
1279.57	618.09
1279.67	670.01
1279.77	728.96
1279.87	796.32
1279.97	873.86
1280.07	963.47
1280.17	1067.94
1280.27	1190.55
1280.37	1335.154
1280.47	1507.576
1280.57	1714.062
1280.67	1962.412
1280.77	2264.22
1280.87	2629.53
1280.97	3070.314
1281.07	3597.448
1281.17	4208.37
1281.27	4882.462
1281.37	5561.26
1281.47	6143.964
1281.57	6501.49
1281.67	6454.15
1281.77	5614.886
1281.87	4328.064
1281.97	3111.22
1282.07	2203.59
1282.17	1628.134
1282.27	1296.58
1282.37	1128.902
1282.47	1066.796
1282.57	1071.426
1282.67	1122.655
1282.77	1210.095
1282.87	1329.467
1282.97	1480.662
1283.07	1667.339
1283.17	1894.986
1283.27	2171.439
1283.37	2509.334
1283.47	2921.187
1283.57	3423.092
1283.67	4035.417
1283.77	4769.725
1283.87	5630.244
1283.97	6593.447
1284.07	7583.512
1284.17	8460.375
1284.27	9035.055
1284.37	9107.452
1284.47	8023.644
1284.57	6115.232
1284.67	4172.016
1284.77	2656.536
1284.87	1627.949
1284.97	983.073
1285.07	598.072
1285.17	367.51
1285.27	229.896
1285.37	147.107
1285.47	95.904
1285.57	63.915
1285.67	43.479
1285.77	30.086
1285.87	21.231
1285.97	15.224
1286.07	11.072
1286.17	8.184
1286.27	6.123
1286.37	4.636
1286.47	3.554
1286.57	2.752
1286.67	2.152
1286.77	1.699
1286.87	1.352
1286.97	1.085
1287.07	0.877
1287.17	0.714
1287.27	0.585
1287.37	0.483
1287.47	0.401
1287.57	0.334
1287.67	0.281
1287.77	0.236
1287.87	0.201
1287.97	0.171
1288.07	0.146
1288.17	0.125
1288.27	0.108
1288.37	0.093
1288.47	0.081
1288.57	0.071
1288.67	0.061
1288.77	0.054
1288.87	0.047
1288.97	0.042
1289.07	0.037
1289.17	0.033
1289.27	0.029
1289.37	0.025
1289.47	0.023
1289.57	0.02
1289.67	0.018
1289.77	0.016
1289.87	0.015
1289.97	0.013

File: ref_Si2p_Si2O3.dat
1376.6	0
1376.7	0
1376.8	0
1376.9	0
1377	0
1377.1	0
1377.2	0
1377.3	0
1377.4	0
1377.5	0
1377.6	0
1377.7	0
1377.8	0
1377.9	0
1378	0
1378.1	0
1378.2	0
1378.3	0
1378.4	0
1378.5	0
1378.6	0
1378.7	0
1378.8	0
1378.9	0
1379	0
1379.1	0
1379.2	0
1379.3	0
1379.4	0
1379.5	0
1379.6	0
1379.7	0
1379.8	0
1379.9	0.001
1380	0.001
1380.1	0.002
1380.2	0.003
1380.3	0.004
1380.4	0.007
1380.5	0.011
1380.6	0.018
1380.7	0.028
1380.8	0.045
1380.9	0.069
1381	0.105
1381.1	0.159
1381.2	0.238
1381.3	0.355
1381.4	0.522
1381.5	0.76
1381.6	1.096
1381.7	1.563
1381.8	2.206
1381.9	3.083
1382	4.266
1382.1	5.853
1382.2	7.949
1382.3	10.685
1382.4	14.211
1382.5	18.705
1382.6	24.358
1382.7	31.384
1382.8	40.002
1382.9	50.43
1383	62.91
1383.1	77.591
1383.2	94.565
1383.3	113.849
1383.4	135.35
1383.5	158.83
1383.6	183.889
1383.7	209.949
1383.8	236.252
1383.9	261.859
1384	285.707
1384.1	306.72
1384.2	323.851
1384.3	336.183
1384.4	343.026
1384.5	343.979
1384.6	338.983
1384.7	328.328
1384.8	312.559
1384.9	292.574
1385	269.451
1385.1	244.274
1385.2	218.097
1385.3	191.879
1385.4	166.432
1385.5	142.394
1385.6	120.225
1385.7	100.24
1385.8	82.584
1385.9	67.235
1386	54.11
1386.1	43.057
1386.2	33.8829
1386.3	26.3731
1386.4	20.3067
1386.5	15.468
1386.6	11.6657
1386.7	8.7165
1386.8	6.4463
1386.9	4.7188
1387	3.419
1387.1	2.4519
1387.2	1.7403
1387.3	1.2225
1387.4	0.8498
1387.5	0.5852
1387.6	0.3997
1387.7	0.2703
1387.8	0.1809
1387.9	0.1198
1388	0.0786
1388.1	0.051
1388.2	0.0327
1388.3	0.0208
1388.4	0.013
1388.5	0.0082
1388.6	0.0051
1388.7	0.003
1388.8	0.0018
1388.9	0.0011
1389	0.0006
1389.1	0.0004
1389.2	0.0002
1389.3	0.0001
1389.4	0.0001
1389.5	0
1389.6	0
1389.7	0
1389.8	0
1389.9	0
1390	0
1390.1	0
1390.2	0
1390.3	0
1390.4	0
1390.5	0
1390.6	0
1390.7	0
1390.8	0
1390.9	0
1391	0
1391.1	0
1391.2	0
1391.3	0
1391.4	0
1391.5	0
1391.6	0
1391.7	0
1391.8	0
1391.9	0
1392	0
1392.1	0
1392.2	0
1392.3	0
1392.4	0
1392.5	0
1392.6	0

File: ref_Si2p_Si2O.dat
1376.6	0
1376.7	0
1376.8	0
1376.9	0
1377	0
1377.1	0
1377.2	0
1377.3	0
1377.4	0
1377.5	0
1377.6	0
1377.7	0
1377.8	0
1377.9	0
1378	0
1378.1	0
1378.2	0
1378.3	0
1378.4	0
1378.5	0
1378.6	0
1378.7	0
1378.8	0
1378.9	0
1379	0
1379.1	0
1379.2	0
1379.3	0
1379.4	0
1379.5	0
1379.6	0
1379.7	0
1379.8	0
1379.9	0
1380	0
1380.1	0
1380.2	0
1380.3	0
1380.4	0
1380.5	0
1380.6	0
1380.7	0
1380.8	0.001
1380.9	0
1381	0
1381.1	0
1381.2	0
1381.3	0
1381.4	0
1381.5	0
1381.6	0.001
1381.7	0.003
1381.8	0.003
1381.9	0.005
1382	0.008
1382.1	0.014
1382.2	0.022
1382.3	0.035
1382.4	0.053
1382.5	0.083
1382.6	0.126
1382.7	0.189
1382.8	0.282
1382.9	0.416
1383	0.607
1383.1	0.876
1383.2	1.253
1383.3	1.777
1383.4	2.496
1383.5	3.468
1383.6	4.77
1383.7	6.493
1383.8	8.748
1383.9	11.664
1384	15.39
1384.1	20.099
1384.2	26.004
1384.3	33.277
1384.4	42.118
1384.5	52.708
1384.6	65.21
1384.7	79.737
1384.8	96.332
1384.9	114.95
1385	135.419
1385.1	157.46
1385.2	180.554
1385.3	204.066
1385.4	227.211
1385.5	249.092
1385.6	268.749
1385.7	285.225
1385.8	297.657
1385.9	305.35
1386	307.742
1386.1	304.782
1386.2	296.6639
1386.3	283.8581
1386.4	267.0747
1386.5	247.189
1386.6	225.1577
1386.7	201.9395
1386.8	178.4257
1386.9	155.41
1387	133.5196
1387.1	113.2034
1387.2	94.7573
1387.3	78.3403
1387.4	63.991
1387.5	51.6593
1387.6	41.2273
1387.7	32.5326
1387.8	25.4117
1387.9	19.644
1388	15.0261
1388.1	11.3742
1388.2	8.5202
1388.3	6.3163
1388.4	4.6339
1388.5	3.3646
1388.6	2.4176
1388.7	1.7218
1388.8	1.2152
1388.9	0.8489
1389	0.587
1389.1	0.4018
1389.2	0.2722
1389.3	0.1825
1389.4	0.1211
1389.5	0.0795
1389.6	0.0517
1389.7	0.0334
1389.8	0.0213
1389.9	0.0135
1390	0.0084
1390.1	0.0052
1390.2	0.0032
1390.3	0.0019
1390.4	0.0012
1390.5	0.0007
1390.6	0.0004
1390.7	0.0002
1390.8	0.0001
1390.9	0.0001
1391	0
1391.1	0
1391.2	0
1391.3	0
1391.4	0
1391.5	0
1391.6	0
1391.7	0
1391.8	0
1391.9	0
1392	0
1392.1	0
1392.2	0
1392.3	0
1392.4	0
1392.5	0
1392.6	0

File: ref_Si2p_Si-Nb.dat
1376.97	0.185
1377.07	0.188
1377.17	0.193
1377.27	0.196
1377.37	0.201
1377.47	0.204
1377.57	0.209
1377.67	0.213
1377.77	0.218
1377.87	0.222
1377.97	0.227
1378.07	0.233
1378.17	0.238
1378.27	0.243
1378.37	0.248
1378.47	0.254
1378.57	0.26
1378.67	0.266
1378.77	0.272
1378.87	0.279
1378.97	0.286
1379.07	0.293
1379.17	0.3
1379.27	0.308
1379.37	0.316
1379.47	0.324
1379.57	0.332
1379.67	0.341
1379.77	0.35
1379.87	0.36
1379.97	0.37
1380.07	0.38
1380.17	0.391
1380.27	0.403
1380.37	0.414
1380.47	0.427
1380.57	0.44
1380.67	0.453
1380.77	0.467
1380.87	0.482
1380.97	0.498
1381.07	0.515
1381.17	0.532
1381.27	0.551
1381.37	0.569
1381.47	0.589
1381.57	0.61
1381.67	0.633
1381.77	0.656
1381.87	0.681
1381.97	0.708
1382.07	0.734
1382.17	0.766
1382.27	0.796
1382.37	0.831
1382.47	0.866
1382.57	0.903
1382.67	0.945
1382.77	0.989
1382.87	1.036
1382.97	1.085
1383.07	1.139
1383.17	1.197
1383.27	1.26
1383.37	1.328
1383.47	1.401
1383.57	1.482
1383.67	1.57
1383.77	1.664
1383.87	1.769
1383.97	1.881
1384.07	2.013
1384.17	2.147
1384.27	2.309
1384.37	2.469
1384.47	2.682
1384.57	2.893
1384.67	3.15
1384.77	3.413
1384.87	3.72
1384.97	4.064
1385.07	4.518
1385.17	5.049
1385.27	5.646
1385.37	6.332
1385.47	7.189
1385.57	8.308
1385.67	9.753
1385.77	11.668
1385.87	14.269
1385.97	17.868
1386.07	22.86
1386.17	29.707
1386.27	38.797
1386.37	50.315
1386.47	64.043
1386.57	79.312
1386.67	95.114
1386.77	110.461
1386.87	124.667
1386.97	137.577
1387.07	149.182
1387.17	159.162
1387.27	166.339
1387.37	168.801
1387.47	164.55
1387.57	152.636
1387.67	133.728
1387.77	110.229
1387.87	85.39
1387.97	62.314
1388.07	43.07
1388.17	28.478
1388.27	18.254
1388.37	11.554
1388.47	7.37
1388.57	4.828
1388.67	3.291
1388.77	2.346
1388.87	1.742
1388.97	1.343
1389.07	1.07
1389.17	0.869
1389.27	0.716
1389.37	0.595
1389.47	0.505
1389.57	0.433
1389.67	0.383
1389.77	0.338
1389.87	0.296
1389.97	0.255
1390.07	0.224
1390.17	0.203
1390.27	0.181
1390.37	0.161
1390.47	0.144
1390.57	0.132
1390.67	0.12
1390.77	0.108
1390.87	0.099
1390.97	0.091
1391.07	0.083
1391.17	0.077
1391.27	0.07
1391.37	0.066
1391.47	0.06
1391.57	0.057
1391.67	0.052
1391.77	0.049
1391.87	0.045
1391.97	0.043
1392.07	0.04
1392.17	0.037
1392.27	0.035
1392.37	0.033
1392.47	0.031
1392.57	0.03
1392.67	0.027
1392.77	0.026
1392.87	0.024
1392.97	0.023

File: ref_Si2p_Si-Si.dat
1376.6	2.761
1376.7	2.818
1376.8	2.875
1376.9	2.934
1377	2.994
1377.1	3.058
1377.2	3.123
1377.3	3.188
1377.4	3.258
1377.5	3.331
1377.6	3.404
1377.7	3.479
1377.8	3.558
1377.9	3.642
1378	3.724
1378.1	3.812
1378.2	3.904
1378.3	3.998
1378.4	4.092
1378.5	4.194
1378.6	4.3
1378.7	4.408
1378.8	4.519
1378.9	4.637
1379	4.761
1379.1	4.886
1379.2	5.016
1379.3	5.155
1379.4	5.3
1379.5	5.445
1379.6	5.601
1379.7	5.766
1379.8	5.937
1379.9	6.107
1380	6.294
1380.1	6.494
1380.2	6.694
1380.3	6.901
1380.4	7.127
1380.5	7.367
1380.6	7.606
1380.7	7.861
1380.8	8.14
1380.9	8.428
1381	8.716
1381.1	9.037
1381.2	9.383
1381.3	9.737
1381.4	10.099
1381.5	10.499
1381.6	10.938
1381.7	11.376
1381.8	11.842
1381.9	12.361
1382	12.914
1382.1	13.468
1382.2	14.083
1382.3	14.771
1382.4	15.482
1382.5	16.205
1382.6	17.03
1382.7	17.966
1382.8	18.907
1382.9	19.908
1383	21.054
1383.1	22.337
1383.2	23.622
1383.3	25.059
1383.4	26.738
1383.5	28.556
1383.6	30.376
1383.7	32.539
1383.8	35.156
1383.9	37.867
1384	40.717
1384.1	44.142
1384.2	48.485
1384.3	52.826
1384.4	57.723
1384.5	63.503
1384.6	70.332
1384.7	78.002
1384.8	88.458
1384.9	100.812
1385	115.269
1385.1	132.958
1385.2	157.532
1385.3	190.822
1385.4	237.446
1385.5	304.43
1385.6	401.433
1385.7	539.497
1385.8	727.442
1385.9	966.231
1386	1243.757
1386.1	1534.829
1386.2	1809.92
1386.3	2050
1386.4	2257.29
1386.5	2450.734
1386.6	2644.88
1386.7	2824.649
1386.8	2938.54
1386.9	2919.463
1387	2722.84
1387.1	2356.82
1387.2	1883.14
1387.3	1388.8
1387.4	950.087
1387.5	609.5196
1387.6	372.98
1387.7	222.9604
1387.8	134.0011
1387.9	83.2696
1388	54.4901
1388.1	37.715
1388.2	27.5065
1388.3	20.9648
1388.4	16.432
1388.5	13.119
1388.6	10.7046
1388.7	8.9036
1388.8	7.4762
1388.9	6.5503
1389	5.6988
1389.1	4.8581
1389.2	4.1252
1389.3	3.677
1389.4	3.2622
1389.5	2.8474
1389.6	2.5256
1389.7	2.2835
1389.8	2.0534
1389.9	1.8231
1390	1.6608
1390.1	1.5189
1390.2	1.3801
1390.3	1.2477
1390.4	1.1516
1390.5	1.0627
1390.6	0.9739
1390.7	0.8957
1390.8	0.8328
1390.9	0.7732
1391	0.7136
1391.1	0.6648
1391.2	0.622
1391.3	0.5804
1391.4	0.539
1391.5	0.507
1391.6	0.4768
1391.7	0.4469
1391.8	0.419
1391.9	0.3956
1392	0.3736
1392.1	0.3515
1392.2	0.332
1392.3	0.3149
1392.4	0.2982
1392.5	0.2815
1392.6	0.2675

File: ref_Si2p_SiO2.dat
1376.6	0
1376.7	0
1376.8	0
1376.9	0
1377	0
1377.1	0
1377.2	0
1377.3	0
1377.4	0
1377.5	0
1377.6	0
1377.7	0
1377.8	0
1377.9	0
1378	0
1378.1	0
1378.2	0
1378.3	0
1378.4	0
1378.5	0.001
1378.6	0.001
1378.7	0.002
1378.8	0.003
1378.9	0.005
1379	0.009
1379.1	0.014
1379.2	0.022
1379.3	0.034
1379.4	0.054
1379.5	0.083
1379.6	0.127
1379.7	0.192
1379.8	0.288
1379.9	0.426
1380	0.625
1380.1	0.907
1380.2	1.303
1380.3	1.857
1380.4	2.621
1380.5	3.661
1380.6	5.061
1380.7	6.924
1380.8	9.377
1380.9	12.568
1381	16.67
1381.1	21.883
1381.2	28.445
1381.3	36.603
1381.4	46.584
1381.5	58.628
1381.6	72.954
1381.7	89.734
1381.8	109.069
1381.9	130.962
1382	155.282
1382.1	181.756
1382.2	209.885
1382.3	238.952
1382.4	268.07
1382.5	296.191
1382.6	322.149
1382.7	344.741
1382.8	362.825
1382.9	375.419
1383	381.744
1383.1	381.376
1383.2	374.442
1383.3	361.349
1383.4	342.841
1383.5	319.914
1383.6	293.72
1383.7	265.462
1383.8	236.298
1383.9	207.275
1384	179.294
1384.1	153.014
1384.2	128.897
1384.3	107.221
1384.4	88.109
1384.5	71.546
1384.6	57.426
1384.7	45.57
1384.8	35.768
1384.9	27.799
1385	21.377
1385.1	16.266
1385.2	12.248
1385.3	9.127
1385.4	6.731
1385.5	4.913
1385.6	3.549
1385.7	2.537
1385.8	1.8
1385.9	1.263
1386	0.878
1386.1	0.605
1386.2	0.4115
1386.3	0.2773
1386.4	0.185
1386.5	0.122
1386.6	0.0797
1386.7	0.0517
1386.8	0.0332
1386.9	0.0211
1387	0.0133
1387.1	0.0083
1387.2	0.0051
1387.3	0.0031
1387.4	0.0018
1387.5	0.0012
1387.6	0.0007
1387.7	0.0004
1387.8	0.0003
1387.9	0.0001
1388	0.0001
1388.1	0
1388.2	0
1388.3	0
1388.4	0
1388.5	0
1388.6	0
1388.7	0
1388.8	0
1388.9	0
1389	0
1389.1	0
1389.2	0
1389.3	0
1389.4	0
1389.5	0
1389.6	0
1389.7	0
1389.8	0
1389.9	0
1390	0
1390.1	0
1390.2	0
1390.3	0
1390.4	0
1390.5	0
1390.6	0
1390.7	0
1390.8	0
1390.9	0
1391	0
1391.1	0
1391.2	0
1391.3	0
1391.4	0
1391.5	0
1391.6	0
1391.7	0
1391.8	0
1391.9	0
1392	0
1392.1	0
1392.2	0
1392.3	0
1392.4	0
1392.5	0
1392.6	0