Folder: Si-Nb-Si-glass/data/XPS/casaXPSspectra_Nb=95A

Note: README.md
# Si-Nb-Si-glass
Project for using SESSA program like core-calculator of theoretical XPS-spectra in minimization procedure to build a multilayer structures.
This project was started when I had a problem with build a structure fro the known experimental spectra. 
Unfortunately SESSA v2 doesn't have pure CLI (no-gui) version and I wrote a special wrapper on C and python to call SESSA calculator for each automatically created input file.

File: ref_Nb3d_Nb-Si.dat
1269.97 25.51
1270.07 25.91
1270.17 26.32
1270.27 26.76
1270.37 27.23
1270.47 27.73
1270.57 28.23
1270.67 28.74
1270.77 29.24
1270.87 29.75
1270.97 30.26
1271.07 30.77
1271.17 31.31
1271.27 31.87
1271.37 32.5
1271.47 33.16
1271.57 33.83
1271.67 34.49
1271.77 35.15
1271.87 35.82
1271.97 36.49
1272.07 37.15
1272.17 37.89
1272.27 38.63
1272.37 39.51
1272.47 40.41
1272.57 41.31
1272.67 42.21
1272.77 43.1
1272.87 44
1272.97 44.9
1273.07 45.82
1273.17 46.82
1273.27 47.88
1273.37 49.14
1273.47 50.39
1273.57 51.66
1273.67 52.91
1273.77 54.17
1273.87 55.43
1273.97 56.69
1274.07 58.02
1274.17 59.44
1274.27 61.05
1274.37 62.9
1274.47 64.75
1274.57 66.59
1274.67 68.45
1274.77 70.3
1274.87 72.15
1274.97 73.99
1275.07 76.02
1275.17 78.11
1275.27 80.77
1275.37 83.67
1275.47 86.57
1275.57 89.49
1275.67 92.39
1275.77 95.28
1275.87 98.19
1275.97 101.08
1276.07 104.37
1276.17 107.66
1276.27 111.62
1276.37 115.78
1276.47 120.15
1276.57 124.71
1276.67 129.51
1276.77 134.56
1276.87 139.88
1276.97 145.67
1277.07 152.25
1277.17 159.23
1277.27 166.59
1277.37 174.4
1277.47 182.71
1277.57 191.57
1277.67 201.03
1277.77 211.19
1277.87 222.11
1277.97 234.49
1278.07 248.47
1278.17 263.57
1278.27 279.93
1278.37 297.75
1278.47 317.23
1278.57 338.65
1278.67 362.3
1278.77 388.55
1278.87 417.87
1278.97 451.57
1279.07 490.05
1279.17 533.94
1279.27 584.33
1279.37 642.6
1279.47 710.44
1279.57 790.08
1279.67 884.39
1279.77 997.07
1279.87 1133.03
1279.97 1298.81
1280.07 1503.11
1280.17 1757.51
1280.27 2077.43
1280.37 2482.694
1280.47 2996.016
1280.57 3639.532
1280.67 4421.412
1280.77 5307.57
1280.87 6180.32
1280.97 6822.504
1281.07 6969.468
1281.17 5939.07
1281.27 4195.362
1281.37 2677.22
1281.47 1694.994
1281.57 1153.62
1281.67 885.31
1281.77 769.478
1281.87 737.737
1281.97 754.927
1282.07 804.119
1282.17 878.002
1282.27 974.601
1282.37 1095.13
1282.47 1243.281
1282.57 1425.084
1282.67 1649.133
1282.77 1927.332
1282.87 2276.169
1282.97 2716.802
1283.07 3276.865
1283.17 3989.71
1283.27 4889.385
1283.37 5994.621
1283.47 7271.829
1283.57 8575.165
1283.67 9606.249
1283.77 9995.141
1283.87 8809.055
1283.97 6249.937
1284.07 3806.754
1284.17 2131.528
1284.27 1156.252
1284.37 628.038
1284.47 347.823
1284.57 198.1
1284.67 116.383
1284.77 70.625
1284.87 44.166
1284.97 28.394
1285.07 18.725
1285.17 12.64
1285.27 8.718
1285.37 6.132
1285.47 4.388
1285.57 3.195
1285.67 2.36
1285.77 1.768
1285.87 1.34
1285.97 1.029
1286.07 0.8
1286.17 0.626
1286.27 0.496
1286.37 0.396
1286.47 0.318
1286.57 0.258
1286.67 0.21
1286.77 0.173
1286.87 0.142
1286.97 0.119
1287.07 0.099
1287.17 0.084
1287.27 0.071
1287.37 0.06
1287.47 0.051
1287.57 0.043
1287.67 0.037
1287.77 0.032
1287.87 0.028
1287.97 0.024
1288.07 0.021
1288.17 0.019
1288.27 0.017
1288.37 0.015
1288.47 0.013
1288.57 0.012
1288.67 0.01
1288.77 0.009
1288.87 0.008
1288.97 0.008
1289.07 0.007
1289.17 0.006
1289.27 0.006
1289.37 0.005
1289.47 0.004
1289.57 0.004
1289.67 0.003
1289.77 0.003
1289.87 0.003
1289.97 0.003

File: ref_Si2p_Si2O3.dat
1376.97	0
1377.07	0
1377.17	0
1377.27	0
1377.37	0
1377.47	0
1377.57	0
1377.67	0
1377.77	0
1377.87	0
1377.97	0
1378.07	0
1378.17	0
1378.27	0
1378.37	0
1378.47	0
1378.57	0
1378.67	0
1378.77	0
1378.87	0
1378.97	0
1379.07	0
1379.17	0
1379.27	0
1379.37	0
1379.47	0
1379.57	0
1379.67	0
1379.77	0
1379.87	0
1379.97	0
1380.07	0
1380.17	0.001
1380.27	0.001
1380.37	0.002
1380.47	0.003
1380.57	0.005
1380.67	0.009
1380.77	0.013
1380.87	0.021
1380.97	0.032
1381.07	0.049
1381.17	0.074
1381.27	0.112
1381.37	0.166
1381.47	0.244
1381.57	0.357
1381.67	0.516
1381.77	0.74
1381.87	1.051
1381.97	1.48
1382.07	2.064
1382.17	2.852
1382.27	3.905
1382.37	5.296
1382.47	7.117
1382.57	9.474
1382.67	12.494
1382.77	16.322
1382.87	21.118
1382.97	27.06
1383.07	34.334
1383.17	43.131
1383.27	53.633
1383.37	66.002
1383.47	80.36
1383.57	96.779
1383.67	115.252
1383.77	135.651
1383.87	157.736
1383.97	181.123
1384.07	205.282
1384.17	229.535
1384.27	253.079
1384.37	275.018
1384.47	294.423
1384.57	310.392
1384.67	322.133
1384.77	329.032
1384.87	330.718
1384.97	327.1
1385.07	318.375
1385.17	305.008
1385.27	287.689
1385.37	267.257
1385.47	244.633
1385.57	220.739
1385.67	196.445
1385.77	172.506
1385.87	149.55
1385.97	128.053
1386.07	108.34
1386.17	90.609
1386.27	74.935
1386.37	61.301
1386.47	49.618
1386.57	39.748
1386.67	31.519
1386.77	24.745
1386.87	19.237
1386.97	14.811
1387.07	11.294
1387.17	8.532
1387.27	6.388
1387.37	4.737
1387.47	3.481
1387.57	2.534
1387.67	1.828
1387.77	1.307
1387.87	0.926
1387.97	0.649
1388.07	0.451
1388.17	0.311
1388.27	0.212
1388.37	0.143
1388.47	0.096
1388.57	0.064
1388.67	0.042
1388.77	0.027
1388.87	0.018
1388.97	0.011
1389.07	0.007
1389.17	0.005
1389.27	0.003
1389.37	0.002
1389.47	0.001
1389.57	0.001
1389.67	0
1389.77	0
1389.87	0
1389.97	0
1390.07	0
1390.17	0
1390.27	0
1390.37	0
1390.47	0
1390.57	0
1390.67	0
1390.77	0
1390.87	0
1390.97	0
1391.07	0
1391.17	0
1391.27	0
1391.37	0
1391.47	0
1391.57	0
1391.67	0
1391.77	0
1391.87	0
1391.97	0
1392.07	0
1392.17	0
1392.27	0
1392.37	0
1392.47	0
1392.57	0
1392.67	0
1392.77	0
1392.87	0
1392.97	0

File: ref_Si2p_Si2O.dat
1376.97 0
1377.07 0
1377.17 0
1377.27 0
1377.37 0
1377.47 0
1377.57 0
1377.67 0
1377.77 0
1377.87 0
1377.97 0
1378.07 0
1378.17 0
1378.27 0
1378.37 0
1378.47 0
1378.57 0
1378.67 0
1378.77 0
1378.87 0
1378.97 0
1379.07 0
1379.17 0
1379.27 0
1379.37 0
1379.47 0
1379.57 0
1379.67 0
1379.77 0
1379.87 0
1379.97 0.001
1380.07 0
1380.17 0
1380.27 0
1380.37 0
1380.47 0.001
1380.57 0
1380.67 0.001
1380.77 0.001
1380.87 0.001
1380.97 0.003
1381.07 0.004
1381.17 0.006
1381.27 0.011
1381.37 0.016
1381.47 0.024
1381.57 0.036
1381.67 0.053
1381.77 0.077
1381.87 0.111
1381.97 0.161
1382.07 0.231
1382.17 0.327
1382.27 0.461
1382.37 0.645
1382.47 0.894
1382.57 1.229
1382.67 1.679
1382.77 2.278
1382.87 3.066
1382.97 4.092
1383.07 5.417
1383.17 7.113
1383.27 9.263
1383.37 11.973
1383.47 15.373
1383.57 19.574
1383.67 24.711
1383.77 30.936
1383.87 38.399
1383.97 47.253
1384.07 57.654
1384.17 69.791
1384.27 83.706
1384.37 99.457
1384.47 117.045
1384.57 136.398
1384.67 157.359
1384.77 179.673
1384.87 202.995
1384.97 226.788
1385.07 250.459
1385.17 273.331
1385.27 294.673
1385.37 313.727
1385.47 329.76
1385.57 341.983
1385.67 349.912
1385.77 353.239
1385.87 351.818
1385.97 345.714
1386.07 335.2
1386.17 320.731
1386.27 302.85
1386.37 282.327
1386.47 259.975
1386.57 236.541
1386.67 212.728
1386.77 189.159
1386.87 166.363
1386.97 144.782
1387.07 124.754
1387.17 106.441
1387.27 89.947
1387.37 75.296
1387.47 62.451
1387.57 51.329
1387.67 41.822
1387.77 33.82
1387.87 27.118
1387.97 21.56
1388.07 16.999
1388.17 13.29
1388.27 10.305
1388.37 7.923
1388.47 6.057
1388.57 4.593
1388.67 3.455
1388.77 2.578
1388.87 1.906
1388.97 1.399
1389.07 1.018
1389.17 0.737
1389.27 0.529
1389.37 0.377
1389.47 0.267
1389.57 0.187
1389.67 0.13
1389.77 0.089
1389.87 0.061
1389.97 0.042
1390.07 0.028
1390.17 0.019
1390.27 0.013
1390.37 0.008
1390.47 0.005
1390.57 0.003
1390.67 0.002
1390.77 0.001
1390.87 0.001
1390.97 0.001
1391.07 0
1391.17 0
1391.27 0
1391.37 0
1391.47 0
1391.57 0
1391.67 0
1391.77 0
1391.87 0
1391.97 0
1392.07 0
1392.17 0
1392.27 0
1392.37 0
1392.47 0
1392.57 0
1392.67 0
1392.77 0
1392.87 0
1392.97 0

File: ref_Si2p_Si-Si.dat
1376.97 1.69
1377.07 1.723
1377.17 1.758
1377.27 1.794
1377.37 1.83
1377.47 1.869
1377.57 1.908
1377.67 1.949
1377.77 1.99
1377.87 2.033
1377.97 2.078
1378.07 2.124
1378.17 2.172
1378.27 2.22
1378.37 2.272
1378.47 2.325
1378.57 2.379
1378.67 2.434
1378.77 2.494
1378.87 2.555
1378.97 2.618
1379.07 2.682
1379.17 2.75
1379.27 2.822
1379.37 2.894
1379.47 2.969
1379.57 3.049
1379.67 3.133
1379.77 3.217
1379.87 3.306
1379.97 3.4
1380.07 3.497
1380.17 3.597
1380.27 3.703
1380.37 3.813
1380.47 3.931
1380.57 4.051
1380.67 4.175
1380.77 4.308
1380.87 4.449
1380.97 4.595
1381.07 4.745
1381.17 4.907
1381.27 5.081
1381.37 5.257
1381.47 5.443
1381.57 5.642
1381.67 5.857
1381.77 6.076
1381.87 6.307
1381.97 6.556
1382.07 6.825
1382.17 7.103
1382.27 7.395
1382.37 7.713
1382.47 8.059
1382.57 8.418
1382.67 8.798
1382.77 9.212
1382.87 9.666
1382.97 10.139
1383.07 10.644
1383.17 11.198
1383.27 11.816
1383.37 12.461
1383.47 13.153
1383.57 13.917
1383.67 14.788
1383.77 15.702
1383.87 16.69
1383.97 17.787
1384.07 19.078
1384.17 20.44
1384.27 21.929
1384.37 23.59
1384.47 25.638
1384.57 27.82
1384.67 30.231
1384.77 32.943
1384.87 36.053
1384.97 39.585
1385.07 43.993
1385.17 49.522
1385.27 55.775
1385.37 63.016
1385.47 72.097
1385.57 84.21
1385.67 100.162
1385.77 121.796
1385.87 151.88
1385.97 194.294
1386.07 253.841
1386.17 335.36
1386.27 441.97
1386.37 572.834
1386.47 721.672
1386.57 877.509
1386.67 1028.322
1386.77 1166.077
1386.87 1289.713
1386.97 1402.768
1387.07 1506.023
1387.17 1589.871
1387.27 1632.907
1387.37 1609.691
1387.47 1504.186
1387.57 1320.392
1387.67 1083.301
1387.77 829.777
1387.87 595.021
1387.97 402.196
1388.07 259.23
1388.17 162.008
1388.27 100.306
1388.37 62.995
1388.47 40.96
1388.57 27.906
1388.67 19.952
1388.77 14.895
1388.87 11.571
1388.97 9.226
1389.07 7.482
1389.17 6.137
1389.27 5.15
1389.37 4.372
1389.47 3.816
1389.57 3.353
1389.67 2.925
1389.77 2.504
1389.87 2.191
1389.97 1.962
1390.07 1.752
1390.17 1.543
1390.27 1.382
1390.37 1.255
1390.47 1.139
1390.57 1.023
1390.67 0.931
1390.77 0.856
1390.87 0.785
1390.97 0.715
1391.07 0.658
1391.17 0.61
1391.27 0.565
1391.37 0.52
1391.47 0.483
1391.57 0.451
1391.67 0.42
1391.77 0.391
1391.87 0.366
1391.97 0.343
1392.07 0.322
1392.17 0.301
1392.27 0.284
1392.37 0.267
1392.47 0.252
1392.57 0.237
1392.67 0.224
1392.77 0.213
1392.87 0.201
1392.97 0.191

File: ref_Si2p_SiO2.dat
1376.97 0
1377.07 0
1377.17 0
1377.27 0
1377.37 0
1377.47 0
1377.57 0
1377.67 0.001
1377.77 0.001
1377.87 0.002
1377.97 0.003
1378.07 0.005
1378.17 0.008
1378.27 0.012
1378.37 0.018
1378.47 0.027
1378.57 0.04
1378.67 0.06
1378.77 0.089
1378.87 0.131
1378.97 0.191
1379.07 0.276
1379.17 0.396
1379.27 0.563
1379.37 0.794
1379.47 1.114
1379.57 1.55
1379.67 2.14
1379.77 2.928
1379.87 3.976
1379.97 5.354
1380.07 7.15
1380.17 9.5
1380.27 12.519
1380.37 16.358
1380.47 21.201
1380.57 27.249
1380.67 34.736
1380.77 43.915
1380.87 55.139
1380.97 68.656
1381.07 84.745
1381.17 103.69
1381.27 125.748
1381.37 151.126
1381.47 179.966
1381.57 212.404
1381.67 248.29
1381.77 287.319
1381.87 329.049
1381.97 372.838
1382.07 417.836
1382.17 462.992
1382.27 507.026
1382.37 548.479
1382.47 585.935
1382.57 617.987
1382.67 643.343
1382.77 660.922
1382.87 669.945
1382.97 669.876
1383.07 660.584
1383.17 642.752
1383.27 617.176
1383.37 584.942
1383.47 547.349
1383.57 505.807
1383.67 461.745
1383.77 416.567
1383.87 371.587
1383.97 327.847
1384.07 286.191
1384.17 247.253
1384.27 211.468
1384.37 179.09
1384.47 150.349
1384.57 125.074
1384.67 103.116
1384.77 84.261
1384.87 68.253
1384.97 54.809
1385.07 43.635
1385.17 34.494
1385.27 27.057
1385.37 21.047
1385.47 16.239
1385.57 12.426
1385.67 9.43
1385.77 7.098
1385.87 5.307
1385.97 3.941
1386.07 2.903
1386.17 2.121
1386.27 1.536
1386.37 1.104
1386.47 0.787
1386.57 0.557
1386.67 0.392
1386.77 0.273
1386.87 0.19
1386.97 0.13
1387.07 0.089
1387.17 0.059
1387.27 0.04
1387.37 0.027
1387.47 0.017
1387.57 0.012
1387.67 0.008
1387.77 0.005
1387.87 0.003
1387.97 0.002
1388.07 0.001
1388.17 0.001
1388.27 0.001
1388.37 0.001
1388.47 0
1388.57 0
1388.67 0
1388.77 0.001
1388.87 0
1388.97 0
1389.07 0
1389.17 0
1389.27 0
1389.37 0
1389.47 0
1389.57 0
1389.67 0
1389.77 0
1389.87 0
1389.97 0
1390.07 0
1390.17 0
1390.27 0
1390.37 0
1390.47 0
1390.57 0
1390.67 0
1390.77 0
1390.87 0
1390.97 0
1391.07 0
1391.17 0
1391.27 0
1391.37 0
1391.47 0
1391.57 0
1391.67 0
1391.77 0
1391.87 0
1391.97 0
1392.07 0
1392.17 0
1392.27 0
1392.37 0
1392.47 0
1392.57 0
1392.67 0
1392.77 0
1392.87 0
1392.97 0